<?xml version="1.0" encoding="UTF-8"?>
<!--Element count: 330-->
<Bundle xmlns="http://hl7.org/fhir">
   <id value="eICR-bundle-d45e19"/>
   <meta>
      <profile value="http://hl7.org/fhir/us/ecr/StructureDefinition/eicr-document-bundle"/>
   </meta>
   <identifier>
      <system value="urn:ietf:rfc:3986"/>
      <value value="urn:uuid:39a38342-9688-4609-a187-d89bddf1499a"/>
   </identifier>
   <type value="document"/>
   <timestamp value="2018-10-29T09:33:19.000-04:00"/>
   <entry>
      <fullUrl value="urn:uuid:d825ca95-f385-11ef-d43e-09173f13e4c5"/>
      <resource>
         <Composition>
            <meta>
               <profile value="http://hl7.org/fhir/us/ecr/StructureDefinition/eicr-composition"/>
               <!--CDA templateId: urn:hl7ii:2.16.840.1.113883.10.20.15.2:2016-12-01-->
            </meta>
            <language value="en-US"/>
            <text>
               <status value="generated"/>
               <div xmlns="http://www.w3.org/1999/xhtml" xml:lang="en-US" lang="en-US">
                  <table class="header_table"
                         style="border: 1pt inset #00008b; line-height: 10pt; width: 100%;">
                     <tbody>
                        <tr>
                           <td class="td_header_role_name"
                               style="width: 20%; background-color: #3399ff; padding: 0.1cm 0.2cm; vertical-align: top; background-color: #ffffcc;">
                              <span class="td_label">Document Id</span>
                           </td>
                           <td class="td_header_role_value"> 39a38342-9688-4609-a187-d89bddf1499a</td>
                        </tr>
                        <tr>
                           <td class="td_header_role_name"
                               style="width: 20%; background-color: #3399ff; padding: 0.1cm 0.2cm; vertical-align: top; background-color: #ffffcc;">
                              <span class="td_label">Document Created:</span>
                           </td>
                           <td class="td_header_role_value">October 29, 2018, 09:33:19 -0400 </td>
                        </tr>
                     </tbody>
                  </table>
                  <table class="header_table"
                         style="border: 1pt inset #00008b; line-height: 10pt; width: 100%;">
                     <tbody><!--Author-->
                        <tr>
                           <td class="td_header_role_name"
                               style="width: 20%; background-color: #3399ff; padding: 0.1cm 0.2cm; vertical-align: top; background-color: #ffffcc;">
                              <span class="td_label">Author</span>
                           </td>
                           <td class="td_header_role_value"/>
                        </tr>
                        <tr>
                           <td class="td_header_role_name"
                               style="width: 20%; background-color: #3399ff; padding: 0.1cm 0.2cm; vertical-align: top; background-color: #ffffcc;">
                              <span class="td_label">Contact info</span>
                           </td>
                           <td class="td_header_role_value"> Work Place:<br/>2 Kailua Way<br/>Dallas, TX 75201<br/>Tel (Work Place):  TBDFacilityPhone<br/>Fax (Work Place):  TBDFacilityFax<br/>
                           </td>
                        </tr>
                     </tbody>
                  </table>
                  <table class="header_table"
                         style="border: 1pt inset #00008b; line-height: 10pt; width: 100%;">
                     <tbody><!--encompassingEncounter-->
                        <tr>
                           <td class="td_header_role_name"
                               style="width: 20%; background-color: #3399ff; padding: 0.1cm 0.2cm; vertical-align: top; background-color: #ffffcc;">
                              <span class="td_label">Encounter Id</span>
                           </td>
                           <td class="td_header_role_value">9937012 2.16.840.1.113883.19</td>
                        </tr>
                        <tr>
                           <td class="td_header_role_name"
                               style="width: 20%; background-color: #3399ff; padding: 0.1cm 0.2cm; vertical-align: top; background-color: #ffffcc;">
                              <span class="td_label">Encounter Type</span>
                           </td>
                           <td class="td_header_role_value">Office outpatient visit 15 minutes</td>
                        </tr>
                        <tr>
                           <td class="td_header_role_name"
                               style="width: 20%; background-color: #3399ff; padding: 0.1cm 0.2cm; vertical-align: top; background-color: #ffffcc;">
                              <span class="td_label">Encounter Date</span>
                           </td>
                           <td class="td_header_role_value"> From January 4, 2016  to January 4, 2016 </td>
                        </tr>
                        <tr>
                           <td class="td_header_role_name"
                               style="width: 20%; background-color: #3399ff; padding: 0.1cm 0.2cm; vertical-align: top; background-color: #ffffcc;">
                              <span class="td_label">Encounter Location</span>
                           </td>
                           <td class="td_header_role_value">Outpatient Facility</td>
                        </tr>
                        <tr>
                           <td class="td_header_role_name"
                               style="width: 20%; background-color: #3399ff; padding: 0.1cm 0.2cm; vertical-align: top; background-color: #ffffcc;">
                              <span class="td_label">Responsible party</span>
                           </td>
                           <td class="td_header_role_value">Assigned Amanda,  of TBDFacilityName</td>
                        </tr>
                        <tr>
                           <td class="td_header_role_name"
                               style="width: 20%; background-color: #3399ff; padding: 0.1cm 0.2cm; vertical-align: top; background-color: #ffffcc;">
                              <span class="td_label">Contact info</span>
                           </td>
                           <td class="td_header_role_value"> Home:<br/>2 Kailua Way<br/>Dallas, TX 75201<br/>Tel (Work Place):  555-555-1002 ext 9998<br/>Fax (Work Place):  555-555-1003 <br/>
                           </td>
                        </tr>
                     </tbody>
                  </table>
                  <table class="header_table"
                         style="border: 1pt inset #00008b; line-height: 10pt; width: 100%;">
                     <tbody>
                        <tr>
                           <td class="td_header_role_name"
                               style="width: 20%; background-color: #3399ff; padding: 0.1cm 0.2cm; vertical-align: top; background-color: #ffffcc;">
                              <span class="td_label">Document maintained by</span>
                           </td>
                           <td class="td_header_role_value">TBDFacilityName</td>
                        </tr>
                        <tr>
                           <td class="td_header_role_name"
                               style="width: 20%; background-color: #3399ff; padding: 0.1cm 0.2cm; vertical-align: top; background-color: #ffffcc;">
                              <span class="td_label">Contact info</span>
                           </td>
                           <td class="td_header_role_value"> Work Place:<br/>2 Kailua Way<br/>Dallas, TX 75201<br/>Tel (Work Place):  TBDFacilityPhone<br/>
                           </td>
                        </tr>
                     </tbody>
                  </table>
               </div>
            </text>
            <!--Version Number-->
            <extension url="http://hl7.org/fhir/StructureDefinition/composition-clinicaldocument-versionNumber">
               <valueString value="1"/>
            </extension>
            <identifier>
               <system value="urn:ietf:rfc:3986"/>
               <value value="urn:uuid:d825ca95-f385-11ef-d43e-09173f13e4c5"/>
            </identifier>
            <status value="final"/>
            <type>
               <coding>
                  <system value="http://loinc.org"/>
                  <code value="55751-2"/>
                  <display value="Public health Case report"/>
               </coding>
            </type>
            <subject>
               <reference value="urn:uuid:d825caa7-f385-11ef-d43e-09173f13e4c5"/>
            </subject>
            <encounter>
               <reference value="urn:uuid:d825cae2-f385-11ef-d43e-09173f13e4c5"/>
            </encounter>
            <date value="2018-10-29T09:33:19.000-04:00"/>
            <author>
               <reference value="urn:uuid:d825cacf-f385-11ef-d43e-09173f13e4c5"/>
            </author>
            <title value="Initial Public Health Case Report"/>
            <confidentiality value="N"/>
            <custodian>
               <reference value="urn:uuid:d825cad4-f385-11ef-d43e-09173f13e4c5"/>
            </custodian>
            <relatesTo>
               <code value="transforms"/>
               <targetIdentifier>
                  <system value="urn:ietf:rfc:3986"/>
                  <value value="urn:uuid:39a38342-9688-4609-a187-d89bddf1499a"/>
               </targetIdentifier>
            </relatesTo>
            <section>
               <title value="History of Present Illness"/>
               <code>
                  <coding>
                     <system value="http://loinc.org"/>
                     <code value="10164-2"/>
                     <display value="History of Present illness Narrative"/>
                  </coding>
               </code>
               <text>
                  <status value="generated"/>
                  <div xmlns="http://www.w3.org/1999/xhtml">No history of present illness</div>
               </text>
            </section>
            <section>
               <title value="Medications Administered"/>
               <code>
                  <coding>
                     <system value="http://loinc.org"/>
                     <code value="29549-3"/>
                     <display value="Medication administered Narrative"/>
                  </coding>
               </code>
               <text>
                  <status value="generated"/>
                  <div xmlns="http://www.w3.org/1999/xhtml">No medications administered</div>
               </text>
            </section>
            <section>
               <title value="Problem List"/>
               <code>
                  <coding>
                     <system value="http://loinc.org"/>
                     <code value="11450-4"/>
                     <display value="Problem list - Reported"/>
                  </coding>
               </code>
               <text>
                  <status value="generated"/>
                  <div xmlns="http://www.w3.org/1999/xhtml">No problems reported</div>
               </text>
               <entry>
                  <reference value="urn:uuid:d825bc9b-f385-11ef-d73e-09173f13e4c5"/>
               </entry>
            </section>
            <section>
               <title value="Reason for visit"/>
               <code>
                  <coding>
                     <system value="http://loinc.org"/>
                     <code value="29299-5"/>
                     <display value="Reason for visit"/>
                  </coding>
               </code>
               <text>
                  <status value="generated"/>
                  <div xmlns="http://www.w3.org/1999/xhtml">
                     <p>No information</p>
                  </div>
               </text>
            </section>
            <section>
               <title value="Results"/>
               <code>
                  <coding>
                     <system value="http://loinc.org"/>
                     <code value="30954-2"/>
                     <display value="Relevant diagnostic tests/laboratory data Narrative"/>
                  </coding>
               </code>
               <text>
                  <status value="generated"/>
                  <div xmlns="http://www.w3.org/1999/xhtml">No Lab Results</div>
               </text>
               <entry>
                  <reference value="urn:uuid:d825bc9c-f385-11ef-d73e-09173f13e4c5"/>
               </entry>
            </section>
            <section>
               <title value="Social History"/>
               <code>
                  <coding>
                     <system value="http://loinc.org"/>
                     <code value="29762-2"/>
                     <display value="Social history Narrative"/>
                  </coding>
               </code>
               <text>
                  <status value="generated"/>
                  <div xmlns="http://www.w3.org/1999/xhtml">
                     <table>
                        <col width="10%"/>
                        <col width="10%"/>
                        <col width="10%"/>
                        <col width="10%"/>
                        <col width="10%"/>
                        <col width="10%"/>
                        <col width="10%"/>
                        <col width="10%"/>
                        <col width="10%"/>
                        <col width="10%"/>
                        <thead>
                           <tr>
                              <th>Birth Sex</th>
                              <th>Value</th>
                              <th>Date</th>
                           </tr>
                        </thead>
                        <tbody>
                           <tr>
                              <td>Sex Assigned At Birth</td>
                              <td>Female</td>
                              <td/>
                           </tr>
                        </tbody>
                     </table>
                     <table>
                        <col width="10%"/>
                        <col width="10%"/>
                        <col width="10%"/>
                        <col width="10%"/>
                        <col width="10%"/>
                        <col width="10%"/>
                        <col width="10%"/>
                        <col width="10%"/>
                        <col width="10%"/>
                        <col width="10%"/>
                        <thead>
                           <tr>
                              <th>Social History Observation Type</th>
                              <th>Value</th>
                              <th>Dates(s)</th>
                           </tr>
                        </thead>
                        <tbody>
                           <tr>
                              <td>Occupation / Employment details</td>
                              <td>Sales</td>
                              <td/>
                           </tr>
                           <tr>
                              <td>Pregnancy Status</td>
                              <td>No</td>
                              <td/>
                           </tr>
                        </tbody>
                     </table>
                  </div>
               </text>
               <!--2.16.840.1.113883.10.20.22.4.38-->
               <!--2.16.840.1.113883.10.20.22.4.38:2015-08-01-->
               <entry>
                  <reference value="urn:uuid:d826633e-f385-11ef-d43e-09173f13e4c5"/>
               </entry>
            </section>
            <section>
               <title value="CHIEF COMPLAINT"/>
               <code>
                  <coding>
                     <system value="http://loinc.org"/>
                     <code value="10154-3"/>
                     <display value="Chief complaint Narrative - Reported"/>
                  </coding>
               </code>
               <text>
                  <status value="generated"/>
                  <div xmlns="http://www.w3.org/1999/xhtml">No information</div>
               </text>
            </section>
         </Composition>
      </resource>
   </entry>
   <entry>
      <fullUrl value="urn:uuid:d825caa7-f385-11ef-d43e-09173f13e4c5"/>
      <resource>
         <Patient>
            <meta>
               <profile value="http://hl7.org/fhir/us/ecr/StructureDefinition/us-ph-patient"/>
            </meta>
            <text>
               <status value="generated"/>
               <div xmlns="http://www.w3.org/1999/xhtml">
                  <h1>Everywoman, Eve</h1>
                  <p>Telecom: tel:555-555-2003</p>
                  <p>Telecom: mailto:eeeverywoman@email.com</p>
                  <p>Address: 1 Honolulu Way<br/>Dallas<br/>TX<br/>75201<br/>Dallas<br/>US</p>
                  <p>Gender: F</p>
                  <p>Language: en</p>
               </div>
            </text>
            <extension url="http://hl7.org/fhir/us/core/StructureDefinition/us-core-race">
               <extension url="ombCategory">
                  <valueCoding>
                     <system value="urn:oid:2.16.840.1.113883.6.238"/>
                     <code value="2106-3"/>
                     <display value="WHITE"/>
                  </valueCoding>
               </extension>
               <extension url="text">
                  <valueString value="WHITE"/>
               </extension>
            </extension>
            <extension url="http://hl7.org/fhir/us/core/StructureDefinition/us-core-ethnicity">
               <extension url="ombCategory">
                  <valueCoding>
                     <system value="urn:oid:2.16.840.1.113883.6.238"/>
                     <code value="2186-5"/>
                     <display value="Not Hispanic or Latino"/>
                  </valueCoding>
               </extension>
               <extension url="text">
                  <valueString value="Not Hispanic or Latino"/>
               </extension>
            </extension>
            <extension url="http://hl7.org/fhir/us/core/StructureDefinition/us-core-birthsex">
               <valueCode value="F"/>
            </extension>
            <identifier>
               <system value="urn:oid:2.16.840.1.113883.19.5"/>
               <value value="pt-471325"/>
            </identifier>
            <name>
               <use value="usual"/>
               <family value="Everywoman"/>
               <given value="Eve"/>
            </name>
            <telecom>
               <system value="phone"/>
               <value value="555-555-2003"/>
               <use value="home"/>
            </telecom>
            <telecom>
               <system value="email"/>
               <value value="eeeverywoman@email.com"/>
               <use value="home"/>
            </telecom>
            <gender value="female"/>
            <deceasedBoolean value="false"/>
            <address>
               <use value="home"/>
               <line value="1 Honolulu Way"/>
               <city value="Dallas"/>
               <district value="Dallas"/>
               <state value="TX"/>
               <postalCode value="75201"/>
               <country value="US"/>
            </address>
            <communication>
               <language>
                  <coding>
                     <system value="urn:ietf:bcp:47"/>
                     <code value="en"/>
                  </coding>
               </language>
               <preferred value="true"/>
            </communication>
         </Patient>
      </resource>
   </entry>
   <entry>
      <fullUrl value="urn:uuid:d825cae2-f385-11ef-d43e-09173f13e4c5"/>
      <resource>
         <Encounter>
            <meta>
               <profile value="http://hl7.org/fhir/us/ecr/StructureDefinition/eicr-encounter"/>
               <!--CDA participant: ClinicalDocument[templateId/@root='2.16.840.1.113883.10.20.15.2'][templateId/@extension='2016-12-01']/componentOf/encompassingEncounter-->
            </meta>
            <text>
               <status value="generated"/>
               <div xmlns="http://www.w3.org/1999/xhtml">
                  <table>
                     <col width="15%"/>
                     <col width="15%"/>
                     <col width="15%"/>
                     <col width="15%"/>
                     <col width="15%"/>
                     <col width="15%"/>
                     <col width="15%"/>
                     <col width="15%"/>
                     <col width="15%"/>
                     <col width="15%"/>
                     <thead>
                        <tr>
                           <th>Encounter</th>
                           <th>Date(s)</th>
                           <th>Location</th>
                        </tr>
                     </thead>
                     <tbody>
                        <tr>
                           <td>Office outpatient visit 15 minutes</td>
                           <td>01/04/2016</td>
                           <td>TBDFacilityName</td>
                        </tr>
                        <tr>
                           <td>
                              <ul>
                                 <li>
                                    <p>*** In the table below, row entries with
                                                  values under RCTC columns triggered this
                                                  Electronic Initial Case Report (eICR)</p>
                                    <table>
                                       <col width="15%"/>
                                       <col width="15%"/>
                                       <col width="15%"/>
                                       <col width="15%"/>
                                       <col width="15%"/>
                                       <col width="15%"/>
                                       <col width="15%"/>
                                       <col width="15%"/>
                                       <col width="15%"/>
                                       <col width="15%"/>
                                       <thead>
                                          <tr>
                                             <th>Problem Type</th>
                                             <th>Problem</th>
                                             <th>Date(s)</th>
                                             <th>Code</th>
                                             <th>CodeSystem</th>
                                             <th>RCTC OID ***</th>
                                             <th>RCTC Version ***</th>
                                          </tr>
                                       </thead>
                                       <tbody>
                                          <tr>
                                             <td>Diagnosis</td>
                                             <td>Anencephaly</td>
                                             <td>01/04/2016</td>
                                             <td>Q00.0</td>
                                             <td>ICD-10</td>
                                             <td>2.16.840.1.114222.4.11.7508</td>
                                             <td>2020-06-28</td>
                                          </tr>
                                       </tbody>
                                    </table>
                                 </li>
                              </ul>
                           </td>
                        </tr>
                     </tbody>
                  </table>Nothing to report in plan of care section<p>...</p>
               </div>
            </text>
            <!--INFO: Id from encompassingEncounter-->
            <identifier>
               <system value="urn:oid:2.16.840.1.113883.19"/>
               <value value="9937012"/>
            </identifier>
            <status value="finished"/>
            <class>
               <system value="http://terminology.hl7.org/CodeSystem/v3-ActCode"/>
               <code value="AMB"/>
            </class>
            <type>
               <coding>
                  <system value="http://www.ama-assn.org/go/cpt"/>
                  <code value="99213"/>
                  <display value="Office or other outpatient visit for the evaluation and management of an established patient, which requires a medically appropriate history and/or examination and low level of medical decision making. When using time for code selection, 20-29 minutes of total time is spent on the date of the encounter."/>
               </coding>
               <coding>
                  <system value="http://terminology.hl7.org/CodeSystem/v3-ActCode"/>
                  <code value="AMB"/>
                  <display value="Ambulatory"/>
               </coding>
            </type>
            <type>
               <coding>
                  <system value="http://www.ama-assn.org/go/cpt"/>
                  <code value="99213"/>
                  <display value="Office or other outpatient visit for the evaluation and management of an established patient, which requires a medically appropriate history and/or examination and low level of medical decision making. When using time for code selection, 20-29 minutes of total time is spent on the date of the encounter."/>
               </coding>
            </type>
            <subject>
               <reference value="urn:uuid:d825caa7-f385-11ef-d43e-09173f13e4c5"/>
            </subject>
            <participant>
               <type>
                  <coding>
                     <system value="http://terminology.hl7.org/CodeSystem/v3-ParticipationType"/>
                     <code value="ATND"/>
                  </coding>
               </type>
               <individual>
                  <reference value="urn:uuid:d825caec-f385-11ef-d43e-09173f13e4c5"/>
               </individual>
            </participant>
            <period>
               <start value="2016-01-04"/>
            </period>
            <diagnosis><!--eICR Trigger Code Flag Extension-->
               <extension url="http://hl7.org/fhir/us/ecr/StructureDefinition/eicr-trigger-code-flag-extension">
                  <extension url="triggerCodeValueSet">
                     <valueOid value="urn:oid:2.16.840.1.114222.4.11.7508"/>
                  </extension>
                  <extension url="triggerCodeValueSetVersion">
                     <valueString value="2020-06-28"/>
                  </extension>
                  <extension url="triggerCode">
                     <valueCoding>
                        <system value="http://hl7.org/fhir/sid/icd-10-cm"/>
                        <code value="Q00.0"/>
                        <display value="Anencephaly"/>
                     </valueCoding>
                  </extension>
               </extension>
               <condition><!--2.16.840.1.113883.10.20.22.4.4--><!--2.16.840.1.113883.10.20.22.4.4:2015-08-01--><!--2.16.840.1.113883.10.20.15.2.3.3:2016-12-01-->
                  <reference value="urn:uuid:d82662ad-f385-11ef-d43e-09173f13e4c5"/>
               </condition>
            </diagnosis>
            <location>
               <location>
                  <reference value="urn:uuid:d8266236-f385-11ef-d43e-09173f13e4c5"/>
               </location>
            </location>
            <serviceProvider>
               <reference value="urn:uuid:d8266244-f385-11ef-d43e-09173f13e4c5"/>
            </serviceProvider>
         </Encounter>
      </resource>
   </entry>
   <entry>
      <fullUrl value="urn:uuid:d825caec-f385-11ef-d43e-09173f13e4c5"/>
      <resource>
         <PractitionerRole>
            <meta>
               <profile value="http://hl7.org/fhir/us/ecr/StructureDefinition/us-ph-practitionerrole"/>
            </meta>
            <!--/ClinicalDocument[cda:id[@root="39a38342-9688-4609-a187-d89bddf1499a"]]/componentOf/encompassingEncounter[cda:id[@root="2.16.840.1.113883.19"][@extension="9937012"]]/responsibleParty/assignedEntity[cda:id[@root="2.16.840.1.113883.4.6"][@extension="66666666666"]]-->
            <identifier>
               <system value="http://hl7.org/fhir/sid/us-npi"/>
               <value value="66666666666"/>
            </identifier>
            <practitioner>
               <reference value="urn:uuid:d8266224-f385-11ef-d43e-09173f13e4c5"/>
            </practitioner>
            <organization>
               <reference value="urn:uuid:d8266229-f385-11ef-d43e-09173f13e4c5"/>
            </organization>
            <telecom>
               <system value="phone"/>
               <value value="555-555-1002 ext 9998"/>
               <use value="work"/>
            </telecom>
            <telecom>
               <system value="fax"/>
               <value value="555-555-1003"/>
               <use value="work"/>
            </telecom>
         </PractitionerRole>
      </resource>
   </entry>
   <entry>
      <fullUrl value="urn:uuid:d8266224-f385-11ef-d43e-09173f13e4c5"/>
      <resource>
         <Practitioner>
            <meta>
               <profile value="http://hl7.org/fhir/us/core/StructureDefinition/us-core-practitioner"/>
            </meta>
            <identifier>
               <system value="http://hl7.org/fhir/sid/us-npi"/>
               <value value="66666666666"/>
            </identifier>
            <name>
               <family value="Amanda"/>
               <given value="Assigned"/>
            </name>
            <telecom>
               <system value="phone"/>
               <value value="555-555-1002 ext 9998"/>
               <use value="work"/>
            </telecom>
            <telecom>
               <system value="fax"/>
               <value value="555-555-1003"/>
               <use value="work"/>
            </telecom>
            <address>
               <use value="home"/>
               <line value="2 Kailua Way"/>
               <city value="Dallas"/>
               <state value="TX"/>
               <postalCode value="75201"/>
            </address>
         </Practitioner>
      </resource>
   </entry>
   <entry>
      <fullUrl value="urn:uuid:d8266229-f385-11ef-d43e-09173f13e4c5"/>
      <resource>
         <Organization>
            <meta>
               <profile value="http://hl7.org/fhir/us/ecr/StructureDefinition/us-ph-organization"/>
            </meta>
            <identifier>
               <system value="http://hl7.org/fhir/sid/us-npi"/>
               <value value="tbdfacility#"/>
            </identifier>
            <active value="true"/>
            <name value="TBDFacilityName"/>
            <telecom>
               <system value="phone"/>
               <value value="555-555-1002 ext 9998"/>
               <use value="work"/>
            </telecom>
            <telecom>
               <system value="fax"/>
               <value value="555-555-1003"/>
               <use value="work"/>
            </telecom>
            <address>
               <use value="work"/>
               <line value="2 Kailua Way"/>
               <city value="Dallas"/>
               <state value="TX"/>
               <postalCode value="75201"/>
            </address>
         </Organization>
      </resource>
   </entry>
   <entry>
      <fullUrl value="urn:uuid:d8266236-f385-11ef-d43e-09173f13e4c5"/>
      <resource>
         <Location>
            <meta>
               <profile value="http://hl7.org/fhir/us/ecr/StructureDefinition/us-ph-location"/>
               <!--CDA participant: ClinicalDocument[templateId/@root='2.16.840.1.113883.10.20.15.2'][templateId/@extension='2016-12-01']/componentOf/encompassingEncounter/location-->
            </meta>
            <identifier>
               <system value="http://hl7.org/fhir/sid/us-npi"/>
               <value value="6197"/>
            </identifier>
            <name value="TBDFacilityName"/>
            <type>
               <coding>
                  <system value="http://terminology.hl7.org/CodeSystem/v3-RoleCode"/>
                  <code value="OF"/>
                  <display value="Outpatient Facility"/>
               </coding>
            </type>
            <telecom>
               <system value="phone"/>
               <value value="TBDFacilityPhone"/>
               <use value="work"/>
            </telecom>
            <telecom>
               <system value="fax"/>
               <value value="TBDFacilityFax"/>
               <use value="work"/>
            </telecom>
            <address>
               <use value="work"/>
               <line value="2 Kailua Way"/>
               <city value="Dallas"/>
               <state value="TX"/>
               <postalCode value="75201"/>
            </address>
         </Location>
      </resource>
   </entry>
   <entry>
      <fullUrl value="urn:uuid:d8266244-f385-11ef-d43e-09173f13e4c5"/>
      <resource>
         <Organization>
            <meta>
               <profile value="http://hl7.org/fhir/us/ecr/StructureDefinition/us-ph-organization"/>
            </meta>
            <identifier>
               <system value="http://hl7.org/fhir/sid/us-npi"/>
               <value value="6197"/>
            </identifier>
            <active value="true"/>
            <name value="TBDFacilityName"/>
            <telecom>
               <system value="phone"/>
               <value value="TBDFacilityPhone"/>
               <use value="work"/>
            </telecom>
            <telecom>
               <system value="fax"/>
               <value value="TBDFacilityFax"/>
               <use value="work"/>
            </telecom>
            <address>
               <use value="work"/>
               <line value="2 Kailua Way"/>
               <city value="Dallas"/>
               <state value="TX"/>
               <postalCode value="75201"/>
            </address>
         </Organization>
      </resource>
   </entry>
   <!--INFO: cda:assignedAuthoringDevice-->
   <entry>
      <fullUrl value="urn:uuid:d825cacf-f385-11ef-d43e-09173f13e4c5"/>
      <resource>
         <Device>
            <identifier>
               <system value="urn:ietf:rfc:3986"/>
               <value value="urn:oid:2.16.840.1.113883.3.72.5.20"/>
            </identifier>
            <!--INFO: cda:assignedAuthoringDevice-->
            <modelNumber value="TBD Device"/>
            <version>
               <value value="NI"/>
            </version>
            <location>
               <reference value="urn:uuid:d825cac4-f385-11ef-d43e-09173f13e4c5"/>
            </location>
         </Device>
      </resource>
   </entry>
   <entry>
      <fullUrl value="urn:uuid:d825cac4-f385-11ef-d43e-09173f13e4c5"/>
      <resource>
         <Location>
            <telecom>
               <system value="phone"/>
               <value value="TBDFacilityPhone"/>
               <use value="work"/>
            </telecom>
            <telecom>
               <system value="fax"/>
               <value value="TBDFacilityFax"/>
               <use value="work"/>
            </telecom>
            <address>
               <use value="work"/>
               <line value="2 Kailua Way"/>
               <city value="Dallas"/>
               <state value="TX"/>
               <postalCode value="75201"/>
            </address>
         </Location>
      </resource>
   </entry>
   <entry>
      <fullUrl value="urn:uuid:d825cad4-f385-11ef-d43e-09173f13e4c5"/>
      <resource>
         <Organization>
            <meta>
               <profile value="http://hl7.org/fhir/us/ecr/StructureDefinition/us-ph-organization"/>
            </meta>
            <identifier>
               <system value="http://hl7.org/fhir/sid/us-npi"/>
               <value value="tbdfacility#"/>
            </identifier>
            <active value="true"/>
            <name value="TBDFacilityName"/>
            <telecom>
               <system value="phone"/>
               <value value="TBDFacilityPhone"/>
               <use value="work"/>
            </telecom>
            <address>
               <use value="work"/>
               <line value="2 Kailua Way"/>
               <city value="Dallas"/>
               <state value="TX"/>
               <postalCode value="75201"/>
            </address>
         </Organization>
      </resource>
   </entry>
   <entry>
      <fullUrl value="urn:uuid:d825bc9b-f385-11ef-d73e-09173f13e4c5"/>
      <resource>
         <Condition>
            <meta>
               <profile value="http://hl7.org/fhir/us/ecr/StructureDefinition/us-ph-condition"/>
            </meta>
            <category>
               <coding>
                  <system value="http://terminology.hl7.org/CodeSystem/condition-category"/>
                  <code value="problem-list-item"/>
               </coding>
            </category>
            <code>
               <extension url="http://hl7.org/fhir/StructureDefinition/data-absent-reason">
                  <valueCode value="not-applicable"/>
               </extension>
            </code>
            <subject>
               <reference value="urn:uuid:d825caa7-f385-11ef-d43e-09173f13e4c5"/>
            </subject>
         </Condition>
      </resource>
   </entry>
   <entry>
      <fullUrl value="urn:uuid:d825bc9c-f385-11ef-d73e-09173f13e4c5"/>
      <resource>
         <Observation>
            <meta>
               <profile value="http://hl7.org/fhir/us/core/StructureDefinition/us-core-observation-lab"/>
            </meta>
            <text>
               <status value="generated"/>
               <div xmlns="http://www.w3.org/1999/xhtml">
                  <p>
                     <b>No test reported</b>
                  </p>
               </div>
            </text>
            <status value="final"/>
            <category>
               <coding>
                  <system value="http://terminology.hl7.org/CodeSystem/observation-category"/>
                  <code value="laboratory"/>
                  <display value="Laboratory"/>
               </coding>
               <text value="Laboratory"/>
            </category>
            <code>
               <extension url="http://hl7.org/fhir/StructureDefinition/data-absent-reason">
                  <valueCode value="not-applicable"/>
               </extension>
            </code>
            <subject>
               <reference value="urn:uuid:d825caa7-f385-11ef-d43e-09173f13e4c5"/>
            </subject>
            <valueQuantity>
               <extension url="http://hl7.org/fhir/StructureDefinition/data-absent-reason">
                  <valueCode value="not-applicable"/>
               </extension>
            </valueQuantity>
         </Observation>
      </resource>
   </entry>
   <entry>
      <fullUrl value="urn:uuid:d82662ad-f385-11ef-d43e-09173f13e4c5"/>
      <resource>
         <Condition>
            <meta>
               <profile value="http://hl7.org/fhir/us/ecr/StructureDefinition/us-ph-condition"/>
            </meta>
            <identifier>
               <system value="urn:ietf:rfc:3986"/>
               <value value="urn:uuid:d18568e9-b410-4d9e-8489-953117994d1f"/>
            </identifier>
            <clinicalStatus>
               <coding>
                  <system value="http://terminology.hl7.org/CodeSystem/condition-clinical"/>
                  <code value="active"/>
               </coding>
            </clinicalStatus>
            <category>
               <coding>
                  <system value="http://terminology.hl7.org/CodeSystem/condition-category"/>
                  <code value="encounter-diagnosis"/>
               </coding>
            </category>
            <code>
               <coding>
                  <system value="http://hl7.org/fhir/sid/icd-10-cm"/>
                  <code value="Q00.0"/>
                  <display value="Anencephaly"/>
               </coding>
            </code>
            <subject>
               <reference value="urn:uuid:d825caa7-f385-11ef-d43e-09173f13e4c5"/>
            </subject>
            <onsetDateTime value="2016-01-04"/>
         </Condition>
      </resource>
   </entry>
   <entry>
      <fullUrl value="urn:uuid:d826633e-f385-11ef-d43e-09173f13e4c5"/>
      <resource><!--Processing as generic observation: 2.16.840.1.113883.10.20.22.4.38 2.16.840.1.113883.10.20.22.4.38:-->
         <Observation>
            <identifier>
               <system value="urn:ietf:rfc:3986"/>
               <value value="urn:uuid:e4f32c96-9433-44e0-804d-8b0586f6d5ad"/>
            </identifier>
            <status value="final"/>
            <category>
               <coding>
                  <system value="http://terminology.hl7.org/CodeSystem/observation-category"/>
                  <code value="social-history"/>
                  <display value="Social History"/>
               </coding>
            </category>
            <code>
               <coding>
                  <system value="http://snomed.info/sct"/>
                  <code value="364703007"/>
                  <display value="Employment detail"/>
               </coding>
               <coding>
                  <system value="http://loinc.org"/>
                  <code value="11295-3"/>
                  <display value="Current employment - Reported"/>
               </coding>
            </code>
            <subject>
               <reference value="urn:uuid:d825caa7-f385-11ef-d43e-09173f13e4c5"/>
            </subject>
            <!--WARNING: Unknown effective time format-->
            <!--INFO: Using document effective time as issued date-->
            <issued value="2018-10-29T09:33:19.000-04:00"/>
            <valueCodeableConcept>
               <coding>
                  <system value="http://snomed.info/sct"/>
                  <code value="159606005"/>
                  <display value="Sales"/>
               </coding>
            </valueCodeableConcept>
         </Observation>
      </resource>
   </entry>
</Bundle>
