{"resourceType":"Bundle","id":"bundle-ecr-message-zika","meta":{"versionId":"7","lastUpdated":"2020-12-08T22:36:32.576+00:00","source":"#V03NxTGD1UvZKbCn","profile":["http://hl7.org/fhir/us/ecr/StructureDefinition/ecr-message-bundle"]},"identifier":{"system":"urn:ietf:rfc:3986","value":"urn:uuid:0c3eec0b-145b-4694-a1b8-1ea4de5a0cb0"},"type":"message","entry":[{"fullUrl":"http://example.org/fhir/MessageHeader/messageheader-ecr-requested-eicr","resource":{"resourceType":"MessageHeader","id":"messageheader-ecr-requested-eicr","text":{"status":"generated","div":"<div xmlns=\"http://www.w3.org/1999/xhtml\">\n                        <table xmlns:xsl=\"http://www.w3.org/1999/XSL/Transform\">\n                            <tr>\n                                <td style=\"font-weight: bold\">id</td>\n                                <td>\n                                    <div title=\"id\">messageheader-ecr-requested-eicr</div>\n                                </td>\n                            </tr>\n                            <tr>\n                                <td style=\"font-weight: bold\">meta</td>\n                                <td>\n                                    <table>\n                                        <tr>\n                                            <td style=\"font-weight: bold\">versionId</td>\n                                            <td>\n                                                <div title=\"versionId\">7</div>\n                                            </td>\n                                        </tr>\n                                        <tr>\n                                            <td style=\"font-weight: bold\">lastUpdated</td>\n                                            <td>\n                                                <div title=\"lastUpdated\">2019-10-05T01:19:11.000-04:00</div>\n                                            </td>\n                                        </tr>\n                                        <tr>\n                                            <td style=\"font-weight: bold\">profile</td>\n                                            <td>\n                                                <div title=\"profile\">http://hl7.org/fhir/us/ecr/StructureDefinition/ecr-messageheader</div>\n                                            </td>\n                                        </tr>\n                                        <tr>\n                                            <td style=\"font-weight: bold\">tag</td>\n                                            <td>\n                                                <table>\n                                                    <tr>\n                                                        <td style=\"font-weight: bold\">system</td>\n                                                        <td>\n                                                            <div title=\"system\">\n                                                                <a href=\"http://terminology.hl7.org/CodeSystem/v3-ObservationValue\">http://terminology.hl7.org/CodeSystem/v3-ObservationValue</a>\n                                                            </div>\n                                                        </td>\n                                                    </tr>\n                                                    <tr>\n                                                        <td style=\"font-weight: bold\">code</td>\n                                                        <td>\n                                                            <div title=\"code\">SUBSETTED</div>\n                                                        </td>\n                                                    </tr>\n                                                    <tr>\n                                                        <td style=\"font-weight: bold\">display</td>\n                                                        <td>\n                                                            <div title=\"display\">subsetted</div>\n                                                        </td>\n                                                    </tr>\n                                                </table>\n                                            </td>\n                                        </tr>\n                                    </table>\n                                </td>\n                            </tr>\n                            <tr>\n                                <td style=\"font-weight: bold\">eventCoding</td>\n                                <td>\n                                    <table>\n                                        <tr>\n                                            <td style=\"font-weight: bold\">system</td>\n                                            <td>\n                                                <div title=\"system\">\n                                                    <a href=\"CodeSystem-codesystem-messageHeader-event.html\">http://hl7.org/fhir/us/ecr/CodeSystem/codesystem-messageHeader-event</a>\n                                                </div>\n                                            </td>\n                                        </tr>\n                                        <tr>\n                                            <td style=\"font-weight: bold\">code</td>\n                                            <td>\n                                                <div title=\"code\">process-eicr</div>\n                                            </td>\n                                        </tr>\n                                        <tr>\n                                            <td style=\"font-weight: bold\">display</td>\n                                            <td>\n                                                <div title=\"display\">Process eICR</div>\n                                            </td>\n                                        </tr>\n                                    </table>\n                                </td>\n                            </tr>\n                            <tr>\n                                <td style=\"font-weight: bold\">destination</td>\n                                <td>\n                                    <table>\n                                        <tr>\n                                            <td style=\"font-weight: bold\">name</td>\n                                            <td>\n                                                <div title=\"name\">YMCA Acme Message Gateway</div>\n                                            </td>\n                                        </tr>\n                                        <tr>\n                                            <td style=\"font-weight: bold\">target</td>\n                                            <td>\n                                                <ul style=\"list-style:none; padding-left:0; margin:0 0;\">\n                                                    <li>\n                                                        <a href=\"Device-device-ecr-software-ymca.html\">Device/device-ecr-software-ymca</a>\n                                                    </li>\n                                                </ul>\n                                            </td>\n                                        </tr>\n                                        <tr>\n                                            <td style=\"font-weight: bold\">endpoint</td>\n                                            <td>\n                                                <div title=\"endpoint\">http://example.org/ymca/fhir</div>\n                                            </td>\n                                        </tr>\n                                    </table>\n                                </td>\n                            </tr>\n                            <tr>\n                                <td style=\"font-weight: bold\">sender</td>\n                                <td>\n                                    <ul style=\"list-style:none; padding-left:0; margin:0 0;\">\n                                        <li>\n                                            <a href=\"Organization-organization-ecr-salem-medical-center.html\">Organization/organization-ecr-salem-medical-center</a>\n                                        </li>\n                                    </ul>\n                                </td>\n                            </tr>\n                            <tr>\n                                <td style=\"font-weight: bold\">source</td>\n                                <td>\n                                    <table>\n                                        <tr>\n                                            <td style=\"font-weight: bold\">name</td>\n                                            <td>\n                                                <div title=\"name\">Acme Central Patient Registry</div>\n                                            </td>\n                                        </tr>\n                                        <tr>\n                                            <td style=\"font-weight: bold\">software</td>\n                                            <td>\n                                                <div title=\"software\">FooBar Patient Manager</div>\n                                            </td>\n                                        </tr>\n                                        <tr>\n                                            <td style=\"font-weight: bold\">version</td>\n                                            <td>\n                                                <div title=\"version\">3.1.45.AABB</div>\n                                            </td>\n                                        </tr>\n                                        <tr>\n                                            <td style=\"font-weight: bold\">contact</td>\n                                            <td>\n                                                <table>\n                                                    <tr>\n                                                        <td style=\"font-weight: bold\">system</td>\n                                                        <td>\n                                                            <div title=\"system\">phone</div>\n                                                        </td>\n                                                    </tr>\n                                                    <tr>\n                                                        <td style=\"font-weight: bold\">value</td>\n                                                        <td>\n                                                            <div title=\"value\">+1 (555) 123 4567</div>\n                                                        </td>\n                                                    </tr>\n                                                </table>\n                                            </td>\n                                        </tr>\n                                        <tr>\n                                            <td style=\"font-weight: bold\">endpoint</td>\n                                            <td>\n                                                <div title=\"endpoint\">http://example.org/salem-medical-center/fhir</div>\n                                            </td>\n                                        </tr>\n                                    </table>\n                                </td>\n                            </tr>\n                            <tr>\n                                <td style=\"font-weight: bold\">focus</td>\n                                <td>\n                                    <ul style=\"list-style:none; padding-left:0; margin:0 0;\">\n                                        <li>\n                                            <a href=\"Task-task-ecr-ehr-requested-eicr.html\">Task/task-ecr-ehr-requested-eicr</a>\n                                        </li>\n                                    </ul>\n                                </td>\n                            </tr>\n                        </table>\n                    </div>"},"eventCoding":{"system":"http://hl7.org/fhir/us/ecr/CodeSystem/codesystem-messageHeader-event","code":"process-eicr","display":"Process eICR"},"destination":[{"name":"YMCA Acme Message Gateway","target":{"reference":"Device/device-ecr-software-ymca"},"endpoint":"http://example.org/ymca/fhir"}],"sender":{"reference":"Organization/organization-ecr-salem-medical-center"},"source":{"name":"Acme Central Patient Registry","software":"FooBar Patient Manager","version":"3.1.45.AABB","contact":{"system":"phone","value":"+1 (555) 123 4567"},"endpoint":"http://example.org/salem-medical-center/fhir"},"focus":[{"reference":"Task/task-ecr-ehr-requested-eicr"}]}},{"fullUrl":"http://example.org/fhir/Task/task-ecr-ehr-requested-eicr","resource":{"resourceType":"Task","id":"task-ecr-ehr-requested-eicr","text":{"status":"generated","div":"<div xmlns=\"http://www.w3.org/1999/xhtml\">\n                        <table xmlns:xsl=\"http://www.w3.org/1999/XSL/Transform\">\n                            <tr>\n                                <td style=\"font-weight: bold\">id</td>\n                                <td>\n                                    <div title=\"id\">task-ecr-ehr-requested-eicr</div>\n                                </td>\n                            </tr>\n                            <tr>\n                                <td style=\"font-weight: bold\">meta</td>\n                                <td>\n                                    <table>\n                                        <tr>\n                                            <td style=\"font-weight: bold\">versionId</td>\n                                            <td>\n                                                <div title=\"versionId\">9</div>\n                                            </td>\n                                        </tr>\n                                        <tr>\n                                            <td style=\"font-weight: bold\">lastUpdated</td>\n                                            <td>\n                                                <div title=\"lastUpdated\">2019-10-05T03:15:42.000-04:00</div>\n                                            </td>\n                                        </tr>\n                                        <tr>\n                                            <td style=\"font-weight: bold\">profile</td>\n                                            <td>\n                                                <div title=\"profile\">http://hl7.org/fhir/us/ecr/StructureDefinition/ecr-task</div>\n                                            </td>\n                                        </tr>\n                                    </table>\n                                </td>\n                            </tr>\n                            <tr>\n                                <td style=\"font-weight: bold\">status</td>\n                                <td>\n                                    <div title=\"status\">requested</div>\n                                </td>\n                            </tr>\n                            <tr>\n                                <td style=\"font-weight: bold\">businessStatus</td>\n                                <td>\n                                    <ul style=\"list-style:none; padding-left:0; margin:0 0;\">\n                                        <li>\n                                            <ul style=\"list-style:none; padding-left:0; margin:0 0;\">\n                                                <li>\n                                                    <div title=\"display\">Send eICR</div>  (\n                                                    \n                                                    \n                                                    \n                                                    \n                                                    \n                                                    <div title=\"code\">sent-eicr</div> )\n                        \n                                                \n                                                \n                                                \n                                                \n                                                \n                                                </li>\n                                                <li>\n                                                    <div title=\"system\">\n                                                        <a href=\"CodeSystem-codesystem-task-businessStatus.html\">http://hl7.org/fhir/us/ecr/CodeSystem/codesystem-task-businessStatus</a>\n                                                    </div>\n                                                </li>\n                                            </ul>\n                                        </li>\n                                    </ul>\n                                </td>\n                            </tr>\n                            <tr>\n                                <td style=\"font-weight: bold\">intent</td>\n                                <td>\n                                    <div title=\"intent\">order</div>\n                                </td>\n                            </tr>\n                            <tr>\n                                <td style=\"font-weight: bold\">focus</td>\n                                <td>\n                                    <ul style=\"list-style:none; padding-left:0; margin:0 0;\">\n                                        <li>\n                                            <a href=\"Bundle-bundle-eicr-document-zika.html\">Bundle/bundle-eicr-document-zika</a>\n                                        </li>\n                                    </ul>\n                                </td>\n                            </tr>\n                            <tr>\n                                <td style=\"font-weight: bold\">authoredOn</td>\n                                <td>\n                                    <div title=\"authoredOn\">2019-05-04T14:43:32-04:00</div>\n                                </td>\n                            </tr>\n                            <tr>\n                                <td style=\"font-weight: bold\">owner</td>\n                                <td>\n                                    <ul style=\"list-style:none; padding-left:0; margin:0 0;\">\n                                        <li>\n                                            <a href=\"Organization-organization-ecr-ymca-center.html\">Organization/organization-ecr-ymca-center</a>\n                                        </li>\n                                    </ul>\n                                </td>\n                            </tr>\n                        </table>\n                    </div>"},"status":"requested","businessStatus":{"coding":[{"system":"http://hl7.org/fhir/us/ecr/CodeSystem/codesystem-task-businessStatus","code":"sent-eicr","display":"Send eICR"}]},"intent":"order","focus":{"reference":"Bundle/bundle-eicr-document-zika"},"authoredOn":"2019-05-04T14:43:32-04:00","owner":{"reference":"Organization/organization-ecr-ymca-center"}}},{"fullUrl":"http://example.org/fhir/Device/device-ecr-software-ymca","resource":{"resourceType":"Device","id":"device-ecr-software-ymca","text":{"status":"generated","div":"<div xmlns=\"http://www.w3.org/1999/xhtml\">\n                        <table xmlns:xsl=\"http://www.w3.org/1999/XSL/Transform\">\n                            <tr>\n                                <td style=\"font-weight: bold\">id:\n                </td>\n                                <td>\n                                    <div title=\"id\">device-ecr-software-ymca</div>\n                                </td>\n                            </tr>\n                            <tr>\n                                <td style=\"font-weight: bold\">meta:\n                </td>\n                                <td>\n                                    <ul style=\"list-style:none; padding-left:0; margin:0 0;\">\n                                        <li>\n                                            <div title=\"versionId\">4</div>\n                                        </li>\n                                        <li>\n                                            <div title=\"lastUpdated\">2019-10-03T05:07:48.000-04:00</div>\n                                        </li>\n                                    </ul>\n                                </td>\n                            </tr>\n                            <tr>\n                                <td style=\"font-weight: bold\">identifier:\n                </td>\n                                <td>\n                                    <ul style=\"list-style:none; padding-left:0; margin:0 0;\">\n                                        <li>\n                                            <div title=\"system\">\n                                                <a href=\"http://acme.com/software/client-ids\">http://acme.com/software/client-ids</a>\n                                            </div>\n                                        </li>\n                                        <li>\n                                            <div title=\"value\">goodhealth_id</div>\n                                        </li>\n                                    </ul>\n                                </td>\n                            </tr>\n                            <tr>\n                                <td style=\"font-weight: bold\">manufacturer:\n                </td>\n                                <td>\n                                    <div title=\"manufacturer\">Acme Devices, Inc</div>\n                                </td>\n                            </tr>\n                            <tr>\n                                <td style=\"font-weight: bold\">type:\n                </td>\n                                <td>\n                                    <div title=\"text\">EHR</div>\n                                </td>\n                            </tr>\n                            <tr>\n                                <td style=\"font-weight: bold\">version:\n                </td>\n                                <td>\n                                    <table>\n                                        <tr>\n                                            <td style=\"font-weight: bold\">value:\n                      </td>\n                                            <td>\n                                                <div title=\"value\">10.23-23423</div>\n                                            </td>\n                                        </tr>\n                                    </table>\n                                </td>\n                            </tr>\n                            <tr>\n                                <td style=\"font-weight: bold\">contact:\n                </td>\n                                <td>\n                                    <ul style=\"list-style:none; padding-left:0; margin:0 0;\">\n                                        <li>\n                                            <div title=\"system\">url</div>\n                                        </li>\n                                        <li>\n                                            <div title=\"value\">http://acme.com</div>\n                                        </li>\n                                    </ul>\n                                </td>\n                            </tr>\n                            <tr>\n                                <td style=\"font-weight: bold\">url:\n                </td>\n                                <td>\n                                    <div title=\"url\">http://acme.com/ymca/software/</div>\n                                </td>\n                            </tr>\n                        </table>\n                    </div>"},"identifier":[{"system":"http://acme.com/software/client-ids","value":"goodhealth_id"}],"manufacturer":"Acme Devices, Inc","type":{"text":"EHR"},"version":[{"value":"10.23-23423"}],"contact":[{"system":"url","value":"http://acme.com"}],"url":"http://acme.com/ymca/software/"}},{"fullUrl":"http://example.org/fhir/Organization/organization-ecr-salem-medical-center","resource":{"resourceType":"Organization","id":"organization-ecr-salem-medical-center","text":{"status":"generated","div":"<div xmlns=\"http://www.w3.org/1999/xhtml\">\n                        <table xmlns:xsl=\"http://www.w3.org/1999/XSL/Transform\">\n                            <tr>\n                                <td style=\"font-weight: bold\">id</td>\n                                <td>\n                                    <div title=\"id\">organization-ecr-salem-medical-center</div>\n                                </td>\n                            </tr>\n                            <tr>\n                                <td style=\"font-weight: bold\">meta</td>\n                                <td>\n                                    <table>\n                                        <tr>\n                                            <td style=\"font-weight: bold\">versionId</td>\n                                            <td>\n                                                <div title=\"versionId\">16</div>\n                                            </td>\n                                        </tr>\n                                        <tr>\n                                            <td style=\"font-weight: bold\">lastUpdated</td>\n                                            <td>\n                                                <div title=\"lastUpdated\">2019-10-05T03:15:41.000-04:00</div>\n                                            </td>\n                                        </tr>\n                                        <tr>\n                                            <td style=\"font-weight: bold\">profile</td>\n                                            <td>\n                                                <div title=\"profile\">http://hl7.org/fhir/us/ecr/StructureDefinition/us-ph-organization</div>\n                                            </td>\n                                        </tr>\n                                    </table>\n                                </td>\n                            </tr>\n                            <tr>\n                                <td style=\"font-weight: bold\">identifier</td>\n                                <td>\n                                    <ul style=\"list-style:none; padding-left:0; margin:0 0;\">\n                                        <li>\n                                            <div title=\"system\">\n                                                <a href=\"http://hl7.org.fhir/sid/us-npi\">http://hl7.org.fhir/sid/us-npi</a>\n                                            </div>\n                                        </li>\n                                        <li>\n                                            <div title=\"value\">55555555</div>\n                                        </li>\n                                    </ul>\n                                </td>\n                            </tr>\n                            <tr>\n                                <td style=\"font-weight: bold\">active</td>\n                                <td>\n                                    <div title=\"active\">true</div>\n                                </td>\n                            </tr>\n                            <tr>\n                                <td style=\"font-weight: bold\">type</td>\n                                <td>\n                                    <ul style=\"list-style:none; padding-left:0; margin:0 0;\">\n                                        <li>\n                                            <ul style=\"list-style:none; padding-left:0; margin:0 0;\">\n                                                <li>\n                                                    <div title=\"display\">Outpatient facility</div>  (\n                                                    \n                                                    \n                                                    \n                                                    \n                                                    \n                                                    <div title=\"code\">OF</div> )\n                        \n                                                \n                                                \n                                                \n                                                \n                                                \n                                                </li>\n                                                <li>\n                                                    <div title=\"system\">\n                                                        <a href=\"http://terminology.hl7.org/CodeSystem/v3-RoleCode\">http://terminology.hl7.org/CodeSystem/v3-RoleCode</a>\n                                                    </div>\n                                                </li>\n                                            </ul>\n                                        </li>\n                                    </ul>\n                                </td>\n                            </tr>\n                            <tr>\n                                <td style=\"font-weight: bold\">name</td>\n                                <td>\n                                    <div title=\"name\">Salem Medical Center</div>\n                                </td>\n                            </tr>\n                            <tr>\n                                <td style=\"font-weight: bold\">telecom</td>\n                                <td>\n                                    <table>\n                                        <tr>\n                                            <td style=\"font-weight: bold\">system</td>\n                                            <td>\n                                                <div title=\"system\">phone</div>\n                                            </td>\n                                        </tr>\n                                        <tr>\n                                            <td style=\"font-weight: bold\">value</td>\n                                            <td>\n                                                <div title=\"value\">+1-555-555-1111</div>\n                                            </td>\n                                        </tr>\n                                    </table>\n                                </td>\n                            </tr>\n                            <tr>\n                                <td style=\"font-weight: bold\">telecom</td>\n                                <td>\n                                    <table>\n                                        <tr>\n                                            <td style=\"font-weight: bold\">system</td>\n                                            <td>\n                                                <div title=\"system\">email</div>\n                                            </td>\n                                        </tr>\n                                        <tr>\n                                            <td style=\"font-weight: bold\">value</td>\n                                            <td>\n                                                <div title=\"value\">mail@salemmedicalcenter.com</div>\n                                            </td>\n                                        </tr>\n                                    </table>\n                                </td>\n                            </tr>\n                            <tr>\n                                <td style=\"font-weight: bold\">address</td>\n                                <td>\n                                    <table>\n                                        <tr>\n                                            <td style=\"font-weight: bold\">line</td>\n                                            <td>\n                                                <div title=\"line\">22222 Health Authority Drive</div>\n                                            </td>\n                                        </tr>\n                                        <tr>\n                                            <td style=\"font-weight: bold\">city</td>\n                                            <td>\n                                                <div title=\"city\">Ann Arbor</div>\n                                            </td>\n                                        </tr>\n                                        <tr>\n                                            <td style=\"font-weight: bold\">state</td>\n                                            <td>\n                                                <div title=\"state\">MI</div>\n                                            </td>\n                                        </tr>\n                                        <tr>\n                                            <td style=\"font-weight: bold\">postalCode</td>\n                                            <td>\n                                                <div title=\"postalCode\">99999</div>\n                                            </td>\n                                        </tr>\n                                    </table>\n                                </td>\n                            </tr>\n                        </table>\n                    </div>"},"identifier":[{"system":"http://hl7.org.fhir/sid/us-npi","value":"55555555"}],"active":true,"type":[{"coding":[{"system":"http://terminology.hl7.org/CodeSystem/v3-RoleCode","code":"OF","display":"Outpatient facility"}]}],"name":"Salem Medical Center","telecom":[{"system":"phone","value":"+1-555-555-1111"},{"system":"email","value":"mail@salemmedicalcenter.com"}],"address":[{"line":["22222 Health Authority Drive"],"city":"Ann Arbor","state":"MI","postalCode":"99999"}]}},{"fullUrl":"http://example.org/fhir/Organization/organization-ecr-ymca-center","resource":{"resourceType":"Organization","id":"organization-ecr-ymca-center","text":{"status":"generated","div":"<div xmlns=\"http://www.w3.org/1999/xhtml\">\n                        <table xmlns:xsl=\"http://www.w3.org/1999/XSL/Transform\">\n                            <tr>\n                                <td style=\"font-weight: bold\">id</td>\n                                <td>\n                                    <div title=\"id\">organization-ecr-ymca-center</div>\n                                </td>\n                            </tr>\n                            <tr>\n                                <td style=\"font-weight: bold\">meta</td>\n                                <td>\n                                    <table>\n                                        <tr>\n                                            <td style=\"font-weight: bold\">versionId</td>\n                                            <td>\n                                                <div title=\"versionId\">9</div>\n                                            </td>\n                                        </tr>\n                                        <tr>\n                                            <td style=\"font-weight: bold\">lastUpdated</td>\n                                            <td>\n                                                <div title=\"lastUpdated\">2019-10-23T13:56:36.000-04:00</div>\n                                            </td>\n                                        </tr>\n                                        <tr>\n                                            <td style=\"font-weight: bold\">profile</td>\n                                            <td>\n                                                <div title=\"profile\">http://hl7.org/fhir/us/ecr/StructureDefinition/us-ph-organization</div>\n                                            </td>\n                                        </tr>\n                                    </table>\n                                </td>\n                            </tr>\n                            <tr>\n                                <td style=\"font-weight: bold\">identifier</td>\n                                <td>\n                                    <ul style=\"list-style:none; padding-left:0; margin:0 0;\">\n                                        <li>\n                                            <div title=\"system\">\n                                                <a href=\"http://hl7.org.fhir/sid/us-npi\">http://hl7.org.fhir/sid/us-npi</a>\n                                            </div>\n                                        </li>\n                                        <li>\n                                            <div title=\"value\">7777788</div>\n                                        </li>\n                                    </ul>\n                                </td>\n                            </tr>\n                            <tr>\n                                <td style=\"font-weight: bold\">active</td>\n                                <td>\n                                    <div title=\"active\">true</div>\n                                </td>\n                            </tr>\n                            <tr>\n                                <td style=\"font-weight: bold\">type</td>\n                                <td>\n                                    <ul style=\"list-style:none; padding-left:0; margin:0 0;\">\n                                        <li>\n                                            <ul style=\"list-style:none; padding-left:0; margin:0 0;\">\n                                                <li>\n                                                    <div title=\"display\">Outpatient facility</div>  (\n                                                    \n                                                    \n                                                    \n                                                    \n                                                    \n                                                    <div title=\"code\">OF</div> )\n                        \n                                                \n                                                \n                                                \n                                                \n                                                \n                                                </li>\n                                                <li>\n                                                    <div title=\"system\">\n                                                        <a href=\"http://terminology.hl7.org/CodeSystem/v3-RoleCode\">http://terminology.hl7.org/CodeSystem/v3-RoleCode</a>\n                                                    </div>\n                                                </li>\n                                            </ul>\n                                        </li>\n                                    </ul>\n                                </td>\n                            </tr>\n                            <tr>\n                                <td style=\"font-weight: bold\">name</td>\n                                <td>\n                                    <div title=\"name\">YMCA</div>\n                                </td>\n                            </tr>\n                            <tr>\n                                <td style=\"font-weight: bold\">telecom</td>\n                                <td>\n                                    <table>\n                                        <tr>\n                                            <td style=\"font-weight: bold\">system</td>\n                                            <td>\n                                                <div title=\"system\">phone</div>\n                                            </td>\n                                        </tr>\n                                        <tr>\n                                            <td style=\"font-weight: bold\">value</td>\n                                            <td>\n                                                <div title=\"value\">+1-555-555-7777</div>\n                                            </td>\n                                        </tr>\n                                    </table>\n                                </td>\n                            </tr>\n                            <tr>\n                                <td style=\"font-weight: bold\">telecom</td>\n                                <td>\n                                    <table>\n                                        <tr>\n                                            <td style=\"font-weight: bold\">system</td>\n                                            <td>\n                                                <div title=\"system\">email</div>\n                                            </td>\n                                        </tr>\n                                        <tr>\n                                            <td style=\"font-weight: bold\">value</td>\n                                            <td>\n                                                <div title=\"value\">mail@ymca.com</div>\n                                            </td>\n                                        </tr>\n                                    </table>\n                                </td>\n                            </tr>\n                            <tr>\n                                <td style=\"font-weight: bold\">address</td>\n                                <td>\n                                    <table>\n                                        <tr>\n                                            <td style=\"font-weight: bold\">line</td>\n                                            <td>\n                                                <div title=\"line\">22222 Health Authority Drive</div>\n                                            </td>\n                                        </tr>\n                                        <tr>\n                                            <td style=\"font-weight: bold\">city</td>\n                                            <td>\n                                                <div title=\"city\">Ann Arbor</div>\n                                            </td>\n                                        </tr>\n                                        <tr>\n                                            <td style=\"font-weight: bold\">state</td>\n                                            <td>\n                                                <div title=\"state\">MI</div>\n                                            </td>\n                                        </tr>\n                                        <tr>\n                                            <td style=\"font-weight: bold\">postalCode</td>\n                                            <td>\n                                                <div title=\"postalCode\">99999</div>\n                                            </td>\n                                        </tr>\n                                    </table>\n                                </td>\n                            </tr>\n                            <tr>\n                                <td style=\"font-weight: bold\">endpoint</td>\n                                <td>\n                                    <ul style=\"list-style:none; padding-left:0; margin:0 0;\">\n                                        <li>\n                                            <a href=\"Endpoint-endpoint-ecr-ymca.html\">Endpoint/endpoint-ecr-ymca</a>\n                                        </li>\n                                    </ul>\n                                </td>\n                            </tr>\n                        </table>\n                    </div>"},"identifier":[{"system":"http://hl7.org.fhir/sid/us-npi","value":"7777788"}],"active":true,"type":[{"coding":[{"system":"http://terminology.hl7.org/CodeSystem/v3-RoleCode","code":"OF","display":"Outpatient facility"}]}],"name":"YMCA","telecom":[{"system":"phone","value":"+1-555-555-7777"},{"system":"email","value":"mail@ymca.com"}],"address":[{"line":["22222 Health Authority Drive"],"city":"Ann Arbor","state":"MI","postalCode":"99999"}],"endpoint":[{"reference":"Endpoint/endpoint-ecr-ymca"}]}}]}